<?xml version="1.0" encoding="UTF-8"?>

<Bundle xmlns="http://hl7.org/fhir">
  <id value="gravitate-Pedro"/>
  <identifier>
    <system value="https://www.gravitatehealth.eu/sid/doc"/>
    <value value="Pedro-ips-1"/>
  </identifier>
  <type value="document"/>
  <timestamp value="2021-04-18T09:22:00+02:00"/>
  <entry>
    <fullUrl value="https://myserver.org/Composition/5702fd1d-dd26-402e-a7c0-7629a5d9bba1"/>
    <resource>
      <Composition>
        <id value="gravitate-Pedro"/>
        <text>
          <status value="generated"/><div xmlns="http://www.w3.org/1999/xhtml"><b>Id:</b> gravitate-Pedro<br/><b>status:</b> final<br/><b>Type:</b> Patient summary Document<br/><b>Subject:</b> Pedro Gravitate<br/><b>Sections:</b><br/><ul><li><b>Title:</b> Problem List<br/><b>Code:</b> Problem list Reported (11450-4)</li><br/><ul><li><b>Entry:</b> <a href="Condition-pedro-cond-1.html">HIV</a></li><br/><li><b>Entry:</b> <a href="Condition-pedro-cond-2.html">Depression</a></li><br/><li><b>Entry:</b> <a href="Condition-pedro-cond-3.html">IBS</a></li><br/></ul><li><b>Title:</b> Medication Summary<br/><b>Code:</b> Hx of Medication use (10160-0)</li><br/><ul><li><b>Entry:</b> <a href="MedicationStatement-pedro-med-stat-1.html">Dovato lamivudine and dolutegravir, 300 mg/50 mg</a></li><br/><li><b>Entry:</b> <a href="MedicationStatement-pedro-med-stat-2.html">Mirtazapine 15 mg</a></li><br/><li><b>Entry:</b> <a href="MedicationStatement-pedro-med-stat-3.html">Calcium carbonate 500 mg</a></li><br/><li><b>Entry:</b> <a href="MedicationStatement-pedro-med-stat-4.html">Cinitrapide 1 mg</a></li><br/><li><b>Entry:</b> <a href="MedicationStatement-pedro-med-stat-5.html">Collagen and magnesium supplements</a></li><br/><li><b>Entry:</b> <a href="MedicationStatement-pedro-med-stat-6.html">Vitamin C supplements</a></li><br/><li><b>Entry:</b> <a href="MedicationStatement-pedro-med-stat-7.html">Protein supplements</a></li><br/></ul></ul></div>
        </text>
        <status value="final"/>
        <type>
          <coding>
            <system value="http://loinc.org"/>
            <code value="60591-5"/>
            <display value="Patient summary Document"/>
          </coding>
        </type>
        <subject>
          <reference value="Patient/pedro-patient"/>
          <display value="Pedro Gravitate"/>
        </subject>
        <date value="2018-07-10T15:22:00+02:00"/>
        <author>
          <reference value="Practitioner/pedro-pract"/>
          <display value="Dr. Anna Karlsson"/>
        </author>
        <title value="Patient Summary (Pedro Gravitate)"/>
        <confidentiality value="N"/>
        <section>
          <title value="Problem List"/>
          <code>
            <coding>
              <system value="http://loinc.org"/>
              <code value="11450-4"/>
              <display value="Problem list Reported"/>
            </coding>
          </code>
          <entry>
            <reference value="Condition/pedro-cond-1"/>
            <display value="Depression"/>
          </entry>
          <entry>
            <reference value="Condition/pedro-cond-2"/>
            <display value="HIV"/>
          </entry>
          <entry>
            <reference value="Condition/pedro-cond-3"/>
            <display value="IBS"/>
          </entry>
        </section>
        <section>
          <title value="Medication Summary"/>
          <code>
            <coding>
              <system value="http://loinc.org"/>
              <code value="10160-0"/>
              <display value="Hx of Medication use"/>
            </coding>
          </code>
          <entry>
            <reference value="MedicationStatement/pedro-med-stat-1"/>
            <display value="Dovato lamivudine and dolutegravir, 300 mg/50 mg"/>
          </entry>
          <entry>
            <reference value="MedicationStatement/pedro-med-stat-2"/>
            <display value="Mirtazapine 15 mg"/>
          </entry>
          <entry>
            <reference value="MedicationStatement/pedro-med-stat-3"/>
            <display value="Calcium carbonate 500 mg"/>
          </entry>
          <entry>
            <reference value="MedicationStatement/pedro-med-stat-4"/>
            <display value="Cinitrapide 1 mg"/>
          </entry>
          <entry>
            <reference value="MedicationStatement/pedro-med-stat-5"/>
            <display value="Collagen and magnesium supplements"/>
          </entry>
          <entry>
            <reference value="MedicationStatement/pedro-med-stat-6"/>
            <display value="Vitamin C supplements"/>
          </entry>
          <entry>
            <reference value="MedicationStatement/pedro-med-stat-7"/>
            <display value="Protein supplements"/>
          </entry>
        </section>
      </Composition>
    </resource>
  </entry>
  <entry>
    <fullUrl value="https://myserver.org/Patient/pedro-patient"/>
    <resource>
      <Patient>
        <id value="pedro-patient"/>
        <text>
          <status value="generated"/><div xmlns="http://www.w3.org/1999/xhtml">Age: 42 years. I live alone, single. Electronics store salesperson Smoker since the age of 20 Interests: cultural events and concerts. I enjoy mountain activities, skiing in winter and hiking the rest of the year. Health Conditions HIV (diagnosed with 38 years) Depression</div>
        </text>
        <extension url="http://hl7.org/fhir/StructureDefinition/patient-citizenship">
          <extension url="code">
            <valueCodeableConcept>
              <coding>
                <system value="urn:iso:std:iso:3166"/>
                <code value="ES"/>
                <display value="Spain"/>
              </coding>
            </valueCodeableConcept>
          </extension>
        </extension>
        <identifier>
          <system value="https://www.gravitatehealth.eu/sid/doc"/>
          <value value="Pedro-1"/>
        </identifier>
        <active value="true"/>
        <name>
          <family value="Gravitate"/>
          <given value="Pedro"/>
        </name>
        <gender value="male"/>
        <birthDate value="1980-10-05"/>
      </Patient>
    </resource>
  </entry>
  <entry>
    <fullUrl value="https://myserver.org/Practitioner/pedro-pract"/>
    <resource>
      <Practitioner>
        <id value="pedro-pract"/>
        <text>
          <status value="generated"/><div xmlns="http://www.w3.org/1999/xhtml"><p><b>Generated Narrative: Practitioner</b><a name="pedro-pract"> </a></p><div style="display: inline-block; background-color: #d9e0e7; padding: 6px; margin: 4px; border: 1px solid #8da1b4; border-radius: 5px; line-height: 60%"><p style="margin-bottom: 0px">Resource Practitioner &quot;pedro-pract&quot; </p></div><p><b>name</b>: Xavier García </p></div>
        </text>
        <name>
          <family value="García"/>
          <given value="Xavier"/>
          <prefix value="Dr."/>
        </name>
      </Practitioner>
    </resource>
  </entry>
  <entry>
    <fullUrl value="https://myserver.org/Condition/pedro-cond-1"/>
    <resource>
      <Condition>
        <id value="pedro-cond-1"/>
        <text>
          <status value="generated"/><div xmlns="http://www.w3.org/1999/xhtml"><p><b>Generated Narrative: Condition</b><a name="pedro-cond-1"> </a></p><div style="display: inline-block; background-color: #d9e0e7; padding: 6px; margin: 4px; border: 1px solid #8da1b4; border-radius: 5px; line-height: 60%"><p style="margin-bottom: 0px">Resource Condition &quot;pedro-cond-1&quot; </p></div><p><b>clinicalStatus</b>: Active <span style="background: LightGoldenRodYellow; margin: 4px; border: 1px solid khaki"> (<a href="http://terminology.hl7.org/5.0.0/CodeSystem-condition-clinical.html">Condition Clinical Status Codes</a>#active)</span></p><p><b>code</b>: Depressive disorder (disorder) <span style="background: LightGoldenRodYellow; margin: 4px; border: 1px solid khaki"> (<a href="https://browser.ihtsdotools.org/">SNOMED CT</a>#35489007)</span></p><p><b>subject</b>: <a href="#Patient_pedro-patient">See above (Patient/pedro-patient: Pedro Gravitate)</a></p></div>
        </text>
        <clinicalStatus>
          <coding>
            <system value="http://terminology.hl7.org/CodeSystem/condition-clinical"/>
            <code value="active"/>
          </coding>
        </clinicalStatus>
        <code>
          <coding>
            <system value="http://snomed.info/sct"/>
            <code value="35489007"/>
            <display value="Depressive disorder (disorder)"/>
          </coding>
          <text value="Depressive disorder (disorder)"/>
        </code>
        <subject>
          <reference value="Patient/pedro-patient"/>
          <display value="Pedro Gravitate"/>
        </subject>
      </Condition>
    </resource>
  </entry>
  <entry>
    <fullUrl value="https://myserver.org/Condition/pedro-cond-2"/>
    <resource>
      <Condition>
        <id value="pedro-cond-2"/>
        <text>
          <status value="generated"/><div xmlns="http://www.w3.org/1999/xhtml"><p><b>Generated Narrative: Condition</b><a name="pedro-cond-2"> </a></p><div style="display: inline-block; background-color: #d9e0e7; padding: 6px; margin: 4px; border: 1px solid #8da1b4; border-radius: 5px; line-height: 60%"><p style="margin-bottom: 0px">Resource Condition &quot;pedro-cond-2&quot; </p></div><p><b>clinicalStatus</b>: Active <span style="background: LightGoldenRodYellow; margin: 4px; border: 1px solid khaki"> (<a href="http://terminology.hl7.org/5.0.0/CodeSystem-condition-clinical.html">Condition Clinical Status Codes</a>#active)</span></p><p><b>code</b>: Human immunodeficiency virus infection <span style="background: LightGoldenRodYellow; margin: 4px; border: 1px solid khaki"> (<a href="https://browser.ihtsdotools.org/">SNOMED CT</a>#86406008)</span></p><p><b>subject</b>: <a href="#Patient_pedro-patient">See above (Patient/pedro-patient: Pedro Gravitate)</a></p><p><b>onset</b>: 2018</p><p><b>asserter</b>: <a href="#Practitioner_pedro-pract">See above (Practitioner/pedro-pract: Dr. Xavier García)</a></p></div>
        </text>
        <clinicalStatus>
          <coding>
            <system value="http://terminology.hl7.org/CodeSystem/condition-clinical"/>
            <code value="active"/>
          </coding>
        </clinicalStatus>
        <code>
          <coding>
            <system value="http://snomed.info/sct"/>
            <code value="86406008"/>
            <display value="Human immunodeficiency virus infection"/>
          </coding>
          <text value="Human immunodeficiency virus infection"/>
        </code>
        <subject>
          <reference value="Patient/pedro-patient"/>
          <display value="Pedro Gravitate"/>
        </subject>
        <onsetDateTime value="2018"/>
        <asserter>
          <reference value="Practitioner/pedro-pract"/>
          <display value="Dr. Xavier García"/>
        </asserter>
      </Condition>
    </resource>
  </entry>
  <entry>
    <fullUrl value="https://myserver.org/Condition/pedro-cond-3"/>
    <resource>
      <Condition>
        <id value="pedro-cond-3"/>
        <text>
          <status value="generated"/><div xmlns="http://www.w3.org/1999/xhtml"><p><b>Generated Narrative: Condition</b><a name="pedro-cond-3"> </a></p><div style="display: inline-block; background-color: #d9e0e7; padding: 6px; margin: 4px; border: 1px solid #8da1b4; border-radius: 5px; line-height: 60%"><p style="margin-bottom: 0px">Resource Condition &quot;pedro-cond-3&quot; </p></div><p><b>clinicalStatus</b>: Active <span style="background: LightGoldenRodYellow; margin: 4px; border: 1px solid khaki"> (<a href="http://terminology.hl7.org/5.0.0/CodeSystem-condition-clinical.html">Condition Clinical Status Codes</a>#active)</span></p><p><b>code</b>: Irritable bowel syndrome <span style="background: LightGoldenRodYellow; margin: 4px; border: 1px solid khaki"> (<a href="https://browser.ihtsdotools.org/">SNOMED CT</a>#10743008)</span></p><p><b>subject</b>: <a href="#Patient_pedro-patient">See above (Patient/pedro-patient: Pedro Gravitate)</a></p></div>
        </text>
        <clinicalStatus>
          <coding>
            <system value="http://terminology.hl7.org/CodeSystem/condition-clinical"/>
            <code value="active"/>
          </coding>
        </clinicalStatus>
        <code>
          <coding>
            <system value="http://snomed.info/sct"/>
            <code value="10743008"/>
            <display value="Irritable bowel syndrome"/>
          </coding>
          <text value="Irritable bowel syndrome"/>
        </code>
        <subject>
          <reference value="Patient/pedro-patient"/>
          <display value="Pedro Gravitate"/>
        </subject>
      </Condition>
    </resource>
  </entry>
  <entry>
    <fullUrl value="https://myserver.org/MedicationStatement/pedro-med-stat-1"/>
    <resource>
      <MedicationStatement>
        <id value="pedro-med-stat-1"/>
        <text>
          <status value="generated"/><div xmlns="http://www.w3.org/1999/xhtml"><p><b>Generated Narrative: MedicationStatement</b><a name="pedro-med-stat-1"> </a></p><div style="display: inline-block; background-color: #d9e0e7; padding: 6px; margin: 4px; border: 1px solid #8da1b4; border-radius: 5px; line-height: 60%"><p style="margin-bottom: 0px">Resource MedicationStatement &quot;pedro-med-stat-1&quot; </p></div><p><b>status</b>: active</p><p><b>medication</b>: <a href="#Medication_9d7be868-8264-4d94-ad04-ef04ecc92e52">See above (Medication/9d7be868-8264-4d94-ad04-ef04ecc92e52: Dovato 50 mg/300 mg (Dolutegravir/ Lamivudine) tablets)</a></p><p><b>subject</b>: <a href="#Patient_pedro-patient">See above (Patient/pedro-patient: Pedro Gravitate)</a></p><h3>Dosages</h3><table class="grid"><tr><td>-</td><td><b>Route</b></td></tr><tr><td>*</td><td>Oral use <span style="background: LightGoldenRodYellow; margin: 4px; border: 1px solid khaki"> (standardterms.edqm.eu#20053000)</span></td></tr></table></div>
        </text>
        <status value="active"/>
        <medicationReference>
          <reference value="Medication/9d7be868-8264-4d94-ad04-ef04ecc92e52"/>
          <display value="Dovato 50 mg/300 mg (Dolutegravir/ Lamivudine) tablets"/>
        </medicationReference>
        <subject>
          <reference value="Patient/pedro-patient"/>
          <display value="Pedro Gravitate"/>
        </subject>
        <dosage>
          <route>
            <coding>
              <system value="http://standardterms.edqm.eu"/>
              <code value="20053000"/>
              <display value="Oral use"/>
            </coding>
          </route>
        </dosage>
      </MedicationStatement>
    </resource>
  </entry>
  <entry>
    <fullUrl value="https://myserver.org/MedicationStatement/pedro-med-stat-2"/>
    <resource>
      <MedicationStatement>
        <id value="pedro-med-stat-2"/>
        <text>
          <status value="generated"/><div xmlns="http://www.w3.org/1999/xhtml"><p><b>Generated Narrative: MedicationStatement</b><a name="pedro-med-stat-2"> </a></p><div style="display: inline-block; background-color: #d9e0e7; padding: 6px; margin: 4px; border: 1px solid #8da1b4; border-radius: 5px; line-height: 60%"><p style="margin-bottom: 0px">Resource MedicationStatement &quot;pedro-med-stat-2&quot; </p></div><p><b>status</b>: active</p><p><b>medication</b>: <a href="#Medication_fdb5c97f-0a46-41ba-bc34-2efd2ef2f7e4">See above (Medication/fdb5c97f-0a46-41ba-bc34-2efd2ef2f7e4: Mirtazapine 30 mg Coated Tablet)</a></p><p><b>subject</b>: <a href="#Patient_pedro-patient">See above (Patient/pedro-patient: Pedro Gravitate)</a></p><h3>Dosages</h3><table class="grid"><tr><td>-</td><td><b>Route</b></td></tr><tr><td>*</td><td>Oral use <span style="background: LightGoldenRodYellow; margin: 4px; border: 1px solid khaki"> (standardterms.edqm.eu#20053000)</span></td></tr></table></div>
        </text>
        <status value="active"/>
        <medicationReference>
          <reference value="Medication/fdb5c97f-0a46-41ba-bc34-2efd2ef2f7e4"/>
          <display value="Mirtazapine 30 mg Coated Tablet"/>
        </medicationReference>
        <subject>
          <reference value="Patient/pedro-patient"/>
          <display value="Pedro Gravitate"/>
        </subject>
        <dosage>
          <route>
            <coding>
              <system value="http://standardterms.edqm.eu"/>
              <code value="20053000"/>
              <display value="Oral use"/>
            </coding>
          </route>
        </dosage>
      </MedicationStatement>
    </resource>
  </entry>
  <entry>
    <fullUrl value="https://myserver.org/MedicationStatement/pedro-med-stat-3"/>
    <resource>
      <MedicationStatement>
        <id value="pedro-med-stat-3"/>
        <text>
          <status value="generated"/><div xmlns="http://www.w3.org/1999/xhtml"><p><b>Generated Narrative: MedicationStatement</b><a name="pedro-med-stat-3"> </a></p><div style="display: inline-block; background-color: #d9e0e7; padding: 6px; margin: 4px; border: 1px solid #8da1b4; border-radius: 5px; line-height: 60%"><p style="margin-bottom: 0px">Resource MedicationStatement &quot;pedro-med-stat-3&quot; </p></div><p><b>status</b>: active</p><p><b>medication</b>: <a href="#Medication_6f4151e9-91f6-4f1e-adc3-fb94dda7785g">See above (Medication/6f4151e9-91f6-4f1e-adc3-fb94dda7785g: CALCIO/VITAMINA D3 ROVI 1000 mg/880 UI COMPRIMIDOS EFERVESCENTES)</a></p><p><b>subject</b>: <a href="#Patient_pedro-patient">See above (Patient/pedro-patient: Pedro Gravitate)</a></p><h3>Dosages</h3><table class="grid"><tr><td>-</td><td><b>Route</b></td></tr><tr><td>*</td><td>Oral use <span style="background: LightGoldenRodYellow; margin: 4px; border: 1px solid khaki"> (standardterms.edqm.eu#20053000)</span></td></tr></table></div>
        </text>
        <status value="active"/>
        <medicationReference>
          <reference value="Medication/6f4151e9-91f6-4f1e-adc3-fb94dda7785g"/>
          <display value="CALCIO/VITAMINA D3 ROVI 1000 mg/880 UI COMPRIMIDOS EFERVESCENTES"/>
        </medicationReference>
        <subject>
          <reference value="Patient/pedro-patient"/>
          <display value="Pedro Gravitate"/>
        </subject>
        <dosage>
          <route>
            <coding>
              <system value="http://standardterms.edqm.eu"/>
              <code value="20053000"/>
              <display value="Oral use"/>
            </coding>
          </route>
        </dosage>
      </MedicationStatement>
    </resource>
  </entry>
  <entry>
    <fullUrl value="https://myserver.org/MedicationStatement/pedro-med-stat-4"/>
    <resource>
      <MedicationStatement>
        <id value="pedro-med-stat-4"/>
        <text>
          <status value="generated"/><div xmlns="http://www.w3.org/1999/xhtml"><p><b>Generated Narrative: MedicationStatement</b><a name="pedro-med-stat-4"> </a></p><div style="display: inline-block; background-color: #d9e0e7; padding: 6px; margin: 4px; border: 1px solid #8da1b4; border-radius: 5px; line-height: 60%"><p style="margin-bottom: 0px">Resource MedicationStatement &quot;pedro-med-stat-4&quot; </p></div><p><b>status</b>: active</p><p><b>medication</b>: <a href="#Medication_6f4151e9-91f6-4f1e-adc3-fb94dda77854">See above (Medication/6f4151e9-91f6-4f1e-adc3-fb94dda77854: cinitrapide 1 mg)</a></p><p><b>subject</b>: <a href="#Patient_pedro-patient">See above (Patient/pedro-patient: Pedro Gravitate)</a></p><h3>Dosages</h3><table class="grid"><tr><td>-</td><td><b>Route</b></td></tr><tr><td>*</td><td>Oral use <span style="background: LightGoldenRodYellow; margin: 4px; border: 1px solid khaki"> (standardterms.edqm.eu#20053000)</span></td></tr></table></div>
        </text>
        <status value="active"/>
        <medicationReference>
          <reference value="Medication/6f4151e9-91f6-4f1e-adc3-fb94dda77854"/>
          <display value="cinitrapide 1 mg"/>
        </medicationReference>
        <subject>
          <reference value="Patient/pedro-patient"/>
          <display value="Pedro Gravitate"/>
        </subject>
        <dosage>
          <route>
            <coding>
              <system value="http://standardterms.edqm.eu"/>
              <code value="20053000"/>
              <display value="Oral use"/>
            </coding>
          </route>
        </dosage>
      </MedicationStatement>
    </resource>
  </entry>
  <entry>
    <fullUrl value="https://myserver.org/MedicationStatement/pedro-med-stat-5"/>
    <resource>
      <MedicationStatement>
        <id value="pedro-med-stat-5"/>
        <text>
          <status value="generated"/><div xmlns="http://www.w3.org/1999/xhtml"><p><b>Generated Narrative: MedicationStatement</b><a name="pedro-med-stat-5"> </a></p><div style="display: inline-block; background-color: #d9e0e7; padding: 6px; margin: 4px; border: 1px solid #8da1b4; border-radius: 5px; line-height: 60%"><p style="margin-bottom: 0px">Resource MedicationStatement &quot;pedro-med-stat-5&quot; </p></div><p><b>status</b>: active</p><p><b>medication</b>: <a href="#Medication_6f4151e9-91f6-4f1e-adc3-fb94dda77855">See above (Medication/6f4151e9-91f6-4f1e-adc3-fb94dda77855: Collagen and magnesium supplements)</a></p><p><b>subject</b>: <a href="#Patient_pedro-patient">See above (Patient/pedro-patient: Pedro Gravitate)</a></p><h3>Dosages</h3><table class="grid"><tr><td>-</td><td><b>Route</b></td></tr><tr><td>*</td><td>Oral use <span style="background: LightGoldenRodYellow; margin: 4px; border: 1px solid khaki"> (standardterms.edqm.eu#20053000)</span></td></tr></table></div>
        </text>
        <status value="active"/>
        <medicationReference>
          <reference value="Medication/6f4151e9-91f6-4f1e-adc3-fb94dda77855"/>
          <display value="Collagen and magnesium supplements"/>
        </medicationReference>
        <subject>
          <reference value="Patient/pedro-patient"/>
          <display value="Pedro Gravitate"/>
        </subject>
        <dosage>
          <route>
            <coding>
              <system value="http://standardterms.edqm.eu"/>
              <code value="20053000"/>
              <display value="Oral use"/>
            </coding>
          </route>
        </dosage>
      </MedicationStatement>
    </resource>
  </entry>
  <entry>
    <fullUrl value="https://myserver.org/MedicationStatement/pedro-med-stat-6"/>
    <resource>
      <MedicationStatement>
        <id value="pedro-med-stat-6"/>
        <text>
          <status value="generated"/><div xmlns="http://www.w3.org/1999/xhtml"><p><b>Generated Narrative: MedicationStatement</b><a name="pedro-med-stat-6"> </a></p><div style="display: inline-block; background-color: #d9e0e7; padding: 6px; margin: 4px; border: 1px solid #8da1b4; border-radius: 5px; line-height: 60%"><p style="margin-bottom: 0px">Resource MedicationStatement &quot;pedro-med-stat-6&quot; </p></div><p><b>status</b>: active</p><p><b>medication</b>: <a href="#Medication_6f4151e9-91f6-4f1e-adc3-fb94dda77856">See above (Medication/6f4151e9-91f6-4f1e-adc3-fb94dda77856: Vitaminc C supplement)</a></p><p><b>subject</b>: <a href="#Patient_pedro-patient">See above (Patient/pedro-patient: Pedro Gravitate)</a></p><h3>Dosages</h3><table class="grid"><tr><td>-</td><td><b>Route</b></td></tr><tr><td>*</td><td>Oral use <span style="background: LightGoldenRodYellow; margin: 4px; border: 1px solid khaki"> (standardterms.edqm.eu#20053000)</span></td></tr></table></div>
        </text>
        <status value="active"/>
        <medicationReference>
          <reference value="Medication/6f4151e9-91f6-4f1e-adc3-fb94dda77856"/>
          <display value="Vitaminc C supplement"/>
        </medicationReference>
        <subject>
          <reference value="Patient/pedro-patient"/>
          <display value="Pedro Gravitate"/>
        </subject>
        <dosage>
          <route>
            <coding>
              <system value="http://standardterms.edqm.eu"/>
              <code value="20053000"/>
              <display value="Oral use"/>
            </coding>
          </route>
        </dosage>
      </MedicationStatement>
    </resource>
  </entry>
  <entry>
    <fullUrl value="https://myserver.org/MedicationStatement/pedro-med-stat-7"/>
    <resource>
      <MedicationStatement>
        <id value="pedro-med-stat-7"/>
        <text>
          <status value="generated"/><div xmlns="http://www.w3.org/1999/xhtml"><p><b>Generated Narrative: MedicationStatement</b><a name="pedro-med-stat-7"> </a></p><div style="display: inline-block; background-color: #d9e0e7; padding: 6px; margin: 4px; border: 1px solid #8da1b4; border-radius: 5px; line-height: 60%"><p style="margin-bottom: 0px">Resource MedicationStatement &quot;pedro-med-stat-7&quot; </p></div><p><b>status</b>: active</p><p><b>medication</b>: <a href="#Medication_6f4151e9-91f6-4f1e-adc3-fb94dda77857">See above (Medication/6f4151e9-91f6-4f1e-adc3-fb94dda77857: Protein supplements)</a></p><p><b>subject</b>: <a href="#Patient_pedro-patient">See above (Patient/pedro-patient: Pedro Gravitate)</a></p><h3>Dosages</h3><table class="grid"><tr><td>-</td><td><b>Route</b></td></tr><tr><td>*</td><td>Oral use <span style="background: LightGoldenRodYellow; margin: 4px; border: 1px solid khaki"> (standardterms.edqm.eu#20053000)</span></td></tr></table></div>
        </text>
        <status value="active"/>
        <medicationReference>
          <reference value="Medication/6f4151e9-91f6-4f1e-adc3-fb94dda77857"/>
          <display value="Protein supplements"/>
        </medicationReference>
        <subject>
          <reference value="Patient/pedro-patient"/>
          <display value="Pedro Gravitate"/>
        </subject>
        <dosage>
          <route>
            <coding>
              <system value="http://standardterms.edqm.eu"/>
              <code value="20053000"/>
              <display value="Oral use"/>
            </coding>
          </route>
        </dosage>
      </MedicationStatement>
    </resource>
  </entry>
  <entry>
    <fullUrl value="https://myserver.org/Medication/9d7be868-8264-4d94-ad04-ef04ecc92e52"/>
    <resource>
      <Medication>
        <id value="9d7be868-8264-4d94-ad04-ef04ecc92e52"/>
        <text>
          <status value="generated"/><div xmlns="http://www.w3.org/1999/xhtml"><p><b>Generated Narrative: Medication</b><a name="9d7be868-8264-4d94-ad04-ef04ecc92e52"> </a></p><div style="display: inline-block; background-color: #d9e0e7; padding: 6px; margin: 4px; border: 1px solid #8da1b4; border-radius: 5px; line-height: 60%"><p style="margin-bottom: 0px">Resource Medication &quot;9d7be868-8264-4d94-ad04-ef04ecc92e52&quot; </p></div><p><b>code</b>: Dovato 50 mg/300 mg 30 tablets <span style="background: LightGoldenRodYellow; margin: 4px; border: 1px solid khaki"> (marketingAuthorizationNumber#EU/1/19/1370/001; phpid#0x073AF2E5B92AE19E8B67635AFFB3D6CA &quot;lamivudine and dolutegravir, 300 mg/50 mg, tablets&quot;; <a href="https://browser.ihtsdotools.org/">SNOMED CT</a>#787165000 &quot;Dolutegravir- and lamivudine-containing product in oral dose form&quot;; <a href="http://terminology.hl7.org/5.0.0/CodeSystem-v3-WC.html">WHO ATC</a>#J05AR25 &quot;lamivudine and dolutegravir&quot;)</span></p><p><b>form</b>: Coated tablet <span style="background: LightGoldenRodYellow; margin: 4px; border: 1px solid khaki"> (standardterms.edqm.eu#10220000)</span></p><blockquote><p><b>ingredient</b></p><p><b>item</b>: lamivudine <span style="background: LightGoldenRodYellow; margin: 4px; border: 1px solid khaki"> (<a href="http://terminology.hl7.org/5.0.0/CodeSystem-UNII.html">Unique Ingredient Identifier (UNII)</a>#2T8Q726O95)</span></p><p><b>strength</b>: 300 mg<span style="background: LightGoldenRodYellow"> (Details: UCUM code mg = 'mg')</span>/1 Tablet<span style="background: LightGoldenRodYellow"> (Details: http://standardterms.edqm.eu code 15054000 = 'Tablet')</span></p></blockquote><blockquote><p><b>ingredient</b></p><p><b>item</b>: dolutegravir <span style="background: LightGoldenRodYellow; margin: 4px; border: 1px solid khaki"> (<a href="http://terminology.hl7.org/5.0.0/CodeSystem-UNII.html">Unique Ingredient Identifier (UNII)</a>#DKO1W9H7M1)</span></p><p><b>strength</b>: 50 mg<span style="background: LightGoldenRodYellow"> (Details: UCUM code mg = 'mg')</span>/1 Tablet<span style="background: LightGoldenRodYellow"> (Details: http://standardterms.edqm.eu code 15054000 = 'Tablet')</span></p></blockquote></div>
        </text>
        <code>
          <coding>
            <system value="http://ema.europa.eu/fhir/marketingAuthorizationNumber"/>
            <code value="EU/1/19/1370/001"/>
            <display value="Dovato 50 mg/300 mg 30 tablets"/>
          </coding>
          <coding>
            <system value="https://www.who-umc.org/phpid"/>
            <code value="0x073AF2E5B92AE19E8B67635AFFB3D6CA"/>
            <display value="lamivudine and dolutegravir, 300 mg/50 mg, tablets"/>
          </coding>
          <coding>
            <system value="http://snomed.info/sct"/>
            <code value="787165000"/>
            <display value="Dolutegravir- and lamivudine-containing product in oral dose form"/>
          </coding>
          <coding>
            <system value="http://www.whocc.no/atc"/>
            <code value="J05AR25"/>
            <display value="lamivudine and dolutegravir"/>
          </coding>
        </code>
        <form>
          <coding>
            <system value="http://standardterms.edqm.eu"/>
            <code value="10220000"/>
            <display value="Coated tablet"/>
          </coding>
        </form>
        <ingredient>
          <itemCodeableConcept>
            <coding>
              <system value="http://fdasis.nlm.nih.gov"/>
              <code value="2T8Q726O95"/>
              <display value="lamivudine"/>
            </coding>
            <text value="lamivudine"/>
          </itemCodeableConcept>
          <strength>
            <numerator>
              <value value="300"/>
              <system value="http://unitsofmeasure.org"/>
              <code value="mg"/>
            </numerator>
            <denominator>
              <value value="1"/>
              <unit value="Tablet"/>
              <system value="http://standardterms.edqm.eu"/>
              <code value="15054000"/>
            </denominator>
          </strength>
        </ingredient>
        <ingredient>
          <itemCodeableConcept>
            <coding>
              <system value="http://fdasis.nlm.nih.gov"/>
              <code value="DKO1W9H7M1"/>
              <display value="dolutegravir"/>
            </coding>
            <text value="dolutegravir"/>
          </itemCodeableConcept>
          <strength>
            <numerator>
              <value value="50"/>
              <system value="http://unitsofmeasure.org"/>
              <code value="mg"/>
            </numerator>
            <denominator>
              <value value="1"/>
              <unit value="Tablet"/>
              <system value="http://standardterms.edqm.eu"/>
              <code value="15054000"/>
            </denominator>
          </strength>
        </ingredient>
      </Medication>
    </resource>
  </entry>
  <entry>
    <fullUrl value="https://myserver.org/Medication/fdb5c97f-0a46-41ba-bc34-2efd2ef2f7e4"/>
    <resource>
      <Medication>
        <id value="fdb5c97f-0a46-41ba-bc34-2efd2ef2f7e4"/>
        <text>
          <status value="generated"/><div xmlns="http://www.w3.org/1999/xhtml"><p><b>Generated Narrative: Medication</b><a name="fdb5c97f-0a46-41ba-bc34-2efd2ef2f7e4"> </a></p><div style="display: inline-block; background-color: #d9e0e7; padding: 6px; margin: 4px; border: 1px solid #8da1b4; border-radius: 5px; line-height: 60%"><p style="margin-bottom: 0px">Resource Medication &quot;fdb5c97f-0a46-41ba-bc34-2efd2ef2f7e4&quot; </p></div><p><b>code</b>: MIRTAZAPINA CINFA 30 mg Coated Tablet <span style="background: LightGoldenRodYellow; margin: 4px; border: 1px solid khaki"> (marketingAuthorizationNumber#PL31654/0006; phpid#0x6c47381b040e5b588db23b2272f28eec &quot;mirtazapine 30 mg, tablets&quot;; <a href="http://terminology.hl7.org/5.0.0/CodeSystem-v3-WC.html">WHO ATC</a>#N06AX11 &quot;mirtazapine&quot;)</span></p><p><b>form</b>: Coated tablet <span style="background: LightGoldenRodYellow; margin: 4px; border: 1px solid khaki"> (standardterms.edqm.eu#10220000)</span></p><h3>Ingredients</h3><table class="grid"><tr><td>-</td><td><b>Item[x]</b></td><td><b>Strength</b></td></tr><tr><td>*</td><td>Mirtazapine <span style="background: LightGoldenRodYellow; margin: 4px; border: 1px solid khaki"> (<a href="http://terminology.hl7.org/5.0.0/CodeSystem-UNII.html">Unique Ingredient Identifier (UNII)</a>#A051Q2099Q)</span></td><td>30 g<span style="background: LightGoldenRodYellow"> (Details: UCUM code g = 'g')</span>/1 Tablet<span style="background: LightGoldenRodYellow"> (Details: http://standardterms.edqm.eu code 15054000 = 'Tablet')</span></td></tr></table></div>
        </text>
        <code>
          <coding>
            <system value="http://ema.europa.eu/fhir/marketingAuthorizationNumber"/>
            <code value="PL31654/0006"/>
            <display value="MIRTAZAPINA CINFA 30 mg Coated Tablet"/>
          </coding>
          <coding>
            <system value="https://www.who-umc.org/phpid"/>
            <code value="0x6c47381b040e5b588db23b2272f28eec"/>
            <display value="mirtazapine 30 mg, tablets"/>
          </coding>
          <coding>
            <system value="http://www.whocc.no/atc"/>
            <code value="N06AX11"/>
            <display value="mirtazapine"/>
          </coding>
        </code>
        <form>
          <coding>
            <system value="http://standardterms.edqm.eu"/>
            <code value="10220000"/>
            <display value="Coated tablet"/>
          </coding>
        </form>
        <ingredient>
          <itemCodeableConcept>
            <coding>
              <system value="http://fdasis.nlm.nih.gov"/>
              <code value="A051Q2099Q"/>
              <display value="Mirtazapine"/>
            </coding>
            <text value="Mirtazapine"/>
          </itemCodeableConcept>
          <strength>
            <numerator>
              <value value="30"/>
              <system value="http://unitsofmeasure.org"/>
              <code value="g"/>
            </numerator>
            <denominator>
              <value value="1"/>
              <unit value="Tablet"/>
              <system value="http://standardterms.edqm.eu"/>
              <code value="15054000"/>
            </denominator>
          </strength>
        </ingredient>
      </Medication>
    </resource>
  </entry>
  <entry>
    <fullUrl value="https://myserver.org/Medication/6f4151e9-91f6-4f1e-adc3-fb94dda7785g"/>
    <resource>
      <Medication>
        <id value="6f4151e9-91f6-4f1e-adc3-fb94dda7785g"/>
        <text>
          <status value="generated"/><div xmlns="http://www.w3.org/1999/xhtml"><p><b>Generated Narrative: Medication</b><a name="6f4151e9-91f6-4f1e-adc3-fb94dda7785g"> </a></p><div style="display: inline-block; background-color: #d9e0e7; padding: 6px; margin: 4px; border: 1px solid #8da1b4; border-radius: 5px; line-height: 60%"><p style="margin-bottom: 0px">Resource Medication &quot;6f4151e9-91f6-4f1e-adc3-fb94dda7785g&quot; </p></div><p><b>code</b>: CALCIO/VITAMINA D3 ROVI 1000 mg/880 UI COMPRIMIDOS EFERVESCENTES <span style="background: LightGoldenRodYellow; margin: 4px; border: 1px solid khaki"> (man#16028/0049; phpid#0xF79CABF272B6A7EEF104DDDA44E82716 &quot;Calcium carbonate 500 mg&quot;)</span></p><p><b>form</b>: Effervescent tablet <span style="background: LightGoldenRodYellow; margin: 4px; border: 1px solid khaki"> (standardterms.edqm.eu#10222000)</span></p><blockquote><p><b>ingredient</b></p><p><b>item</b>: calcium carbonate <span style="background: LightGoldenRodYellow; margin: 4px; border: 1px solid khaki"> (<a href="http://terminology.hl7.org/5.0.0/CodeSystem-UNII.html">Unique Ingredient Identifier (UNII)</a>#H0G9379FGK &quot;Calcium carbonate&quot;)</span></p><p><b>strength</b>: 1000 mg<span style="background: LightGoldenRodYellow"> (Details: UCUM code mg = 'mg')</span>/1 Tablet<span style="background: LightGoldenRodYellow"> (Details: http://standardterms.edqm.eu code 15054000 = 'Tablet')</span></p></blockquote><blockquote><p><b>ingredient</b></p><p><b>item</b>: cholecalciferol <span style="background: LightGoldenRodYellow; margin: 4px; border: 1px solid khaki"> (<a href="http://terminology.hl7.org/5.0.0/CodeSystem-UNII.html">Unique Ingredient Identifier (UNII)</a>#1C6V77QF41)</span></p><p><b>strength</b>: 880 {UI}<span style="background: LightGoldenRodYellow"> (Details: UCUM code {UI} = '{UI}')</span>/1 Tablet<span style="background: LightGoldenRodYellow"> (Details: http://standardterms.edqm.eu code 15054000 = 'Tablet')</span></p></blockquote></div>
        </text>
        <code>
          <coding>
            <system value="https://www.gravitatehealth.eu/sid/man"/>
            <code value="16028/0049"/>
            <display value="CALCIO/VITAMINA D3 ROVI 1000 mg/880 UI COMPRIMIDOS EFERVESCENTES"/>
          </coding>
          <coding>
            <system value="https://www.who-umc.org/phpid"/>
            <code value="0xF79CABF272B6A7EEF104DDDA44E82716"/>
            <display value="Calcium carbonate 500 mg"/>
          </coding>
        </code>
        <form>
          <coding>
            <system value="http://standardterms.edqm.eu"/>
            <code value="10222000"/>
            <display value="Effervescent tablet"/>
          </coding>
          <text value="Effervescent tablet"/>
        </form>
        <ingredient>
          <itemCodeableConcept>
            <coding>
              <system value="http://fdasis.nlm.nih.gov"/>
              <code value="H0G9379FGK"/>
              <display value="Calcium carbonate"/>
            </coding>
            <text value="calcium carbonate"/>
          </itemCodeableConcept>
          <strength>
            <numerator>
              <value value="1000"/>
              <system value="http://unitsofmeasure.org"/>
              <code value="mg"/>
            </numerator>
            <denominator>
              <value value="1"/>
              <unit value="Tablet"/>
              <system value="http://standardterms.edqm.eu"/>
              <code value="15054000"/>
            </denominator>
          </strength>
        </ingredient>
        <ingredient>
          <itemCodeableConcept>
            <coding>
              <system value="http://fdasis.nlm.nih.gov"/>
              <code value="1C6V77QF41"/>
              <display value="cholecalciferol"/>
            </coding>
            <text value="cholecalciferol"/>
          </itemCodeableConcept>
          <strength>
            <numerator>
              <value value="880"/>
              <system value="http://unitsofmeasure.org"/>
              <code value="{UI}"/>
            </numerator>
            <denominator>
              <value value="1"/>
              <unit value="Tablet"/>
              <system value="http://standardterms.edqm.eu"/>
              <code value="15054000"/>
            </denominator>
          </strength>
        </ingredient>
      </Medication>
    </resource>
  </entry>
  <entry>
    <fullUrl value="https://myserver.org/Medication/6f4151e9-91f6-4f1e-adc3-fb94dda77854"/>
    <resource>
      <Medication>
        <id value="6f4151e9-91f6-4f1e-adc3-fb94dda77854"/>
        <text>
          <status value="generated"/><div xmlns="http://www.w3.org/1999/xhtml"><p><b>Generated Narrative: Medication</b><a name="6f4151e9-91f6-4f1e-adc3-fb94dda77854"> </a></p><div style="display: inline-block; background-color: #d9e0e7; padding: 6px; margin: 4px; border: 1px solid #8da1b4; border-radius: 5px; line-height: 60%"><p style="margin-bottom: 0px">Resource Medication &quot;6f4151e9-91f6-4f1e-adc3-fb94dda77854&quot; </p></div><p><b>code</b>: BLASTON 1 mg tablets <span style="background: LightGoldenRodYellow; margin: 4px; border: 1px solid khaki"> (man#xxxxxx; phpid#0xbb82cd10ab2add752b2b9224931077b2 &quot;cinitrapide 1 mg tablet&quot;; <a href="http://terminology.hl7.org/5.0.0/CodeSystem-v3-WC.html">WHO ATC</a>#A03FA08 &quot;Cinitapride&quot;)</span></p><p><b>form</b>: Tablet <span style="background: LightGoldenRodYellow; margin: 4px; border: 1px solid khaki"> (standardterms.edqm.eu#10219000)</span></p><h3>Ingredients</h3><table class="grid"><tr><td>-</td><td><b>Item[x]</b></td><td><b>Strength</b></td></tr><tr><td>*</td><td>CINITAPRIDE <span style="background: LightGoldenRodYellow; margin: 4px; border: 1px solid khaki"> (<a href="http://terminology.hl7.org/5.0.0/CodeSystem-UNII.html">Unique Ingredient Identifier (UNII)</a>#R8I97I2L24)</span></td><td>1 mg<span style="background: LightGoldenRodYellow"> (Details: UCUM code mg = 'mg')</span>/1 Tablet<span style="background: LightGoldenRodYellow"> (Details: http://standardterms.edqm.eu code 15054000 = 'Tablet')</span></td></tr></table></div>
        </text>
        <code>
          <coding>
            <system value="https://www.gravitatehealth.eu/sid/man"/>
            <code value="xxxxxx"/>
            <display value="BLASTON 1 mg tablets"/>
          </coding>
          <coding>
            <system value="https://www.who-umc.org/phpid"/>
            <code value="0xbb82cd10ab2add752b2b9224931077b2"/>
            <display value="cinitrapide 1 mg tablet"/>
          </coding>
          <coding>
            <system value="http://www.whocc.no/atc"/>
            <code value="A03FA08"/>
            <display value="Cinitapride"/>
          </coding>
        </code>
        <form>
          <coding>
            <system value="http://standardterms.edqm.eu"/>
            <code value="10219000"/>
            <display value="Tablet"/>
          </coding>
          <text value="Tablet"/>
        </form>
        <ingredient>
          <itemCodeableConcept>
            <coding>
              <system value="http://fdasis.nlm.nih.gov"/>
              <code value="R8I97I2L24"/>
              <display value="CINITAPRIDE"/>
            </coding>
            <text value="CINITAPRIDE"/>
          </itemCodeableConcept>
          <strength>
            <numerator>
              <value value="1"/>
              <system value="http://unitsofmeasure.org"/>
              <code value="mg"/>
            </numerator>
            <denominator>
              <value value="1"/>
              <unit value="Tablet"/>
              <system value="http://standardterms.edqm.eu"/>
              <code value="15054000"/>
            </denominator>
          </strength>
        </ingredient>
      </Medication>
    </resource>
  </entry>
  <entry>
    <fullUrl value="https://myserver.org/Medication/6f4151e9-91f6-4f1e-adc3-fb94dda77855"/>
    <resource>
      <Medication>
        <id value="6f4151e9-91f6-4f1e-adc3-fb94dda77855"/>
        <text>
          <status value="generated"/><div xmlns="http://www.w3.org/1999/xhtml"><p><b>Generated Narrative: Medication</b><a name="6f4151e9-91f6-4f1e-adc3-fb94dda77855"> </a></p><div style="display: inline-block; background-color: #d9e0e7; padding: 6px; margin: 4px; border: 1px solid #8da1b4; border-radius: 5px; line-height: 60%"><p style="margin-bottom: 0px">Resource Medication &quot;6f4151e9-91f6-4f1e-adc3-fb94dda77855&quot; </p></div><p><b>code</b>: AQUILEA ARTICULACIONES COLAGENO Y MAGNESIO 375GR <span style="background: LightGoldenRodYellow; margin: 4px; border: 1px solid khaki"> (man#yyy)</span></p><p><b>form</b>: Oral powder <span style="background: LightGoldenRodYellow; margin: 4px; border: 1px solid khaki"> (standardterms.edqm.eu#10201000)</span></p><blockquote><p><b>ingredient</b></p><p><b>item</b>: MAGNESIUM <span style="background: LightGoldenRodYellow; margin: 4px; border: 1px solid khaki"> (<a href="http://terminology.hl7.org/5.0.0/CodeSystem-UNII.html">Unique Ingredient Identifier (UNII)</a>#I38ZP9992A)</span></p></blockquote><blockquote><p><b>ingredient</b></p><p><b>item</b>: HYALURONIC ACID <span style="background: LightGoldenRodYellow; margin: 4px; border: 1px solid khaki"> (<a href="http://terminology.hl7.org/5.0.0/CodeSystem-UNII.html">Unique Ingredient Identifier (UNII)</a>#S270N0TRQY)</span></p></blockquote><blockquote><p><b>ingredient</b></p><p><b>item</b>: HUMAN TYPE I COLLAGEN <span style="background: LightGoldenRodYellow; margin: 4px; border: 1px solid khaki"> (<a href="http://terminology.hl7.org/5.0.0/CodeSystem-UNII.html">Unique Ingredient Identifier (UNII)</a>#PT3TGI7OIP)</span></p></blockquote></div>
        </text>
        <code>
          <coding>
            <system value="https://www.gravitatehealth.eu/sid/man"/>
            <code value="yyy"/>
            <display value="AQUILEA ARTICULACIONES COLAGENO Y MAGNESIO 375GR"/>
          </coding>
        </code>
        <form>
          <coding>
            <system value="http://standardterms.edqm.eu"/>
            <code value="10201000"/>
            <display value="Oral powder"/>
          </coding>
          <text value="Oral powder"/>
        </form>
        <ingredient>
          <itemCodeableConcept>
            <coding>
              <system value="http://fdasis.nlm.nih.gov"/>
              <code value="I38ZP9992A"/>
              <display value="MAGNESIUM"/>
            </coding>
            <text value="MAGNESIUM"/>
          </itemCodeableConcept>
        </ingredient>
        <ingredient>
          <itemCodeableConcept>
            <coding>
              <system value="http://fdasis.nlm.nih.gov"/>
              <code value="S270N0TRQY"/>
              <display value="HYALURONIC ACID"/>
            </coding>
            <text value="HYALURONIC ACID"/>
          </itemCodeableConcept>
        </ingredient>
        <ingredient>
          <itemCodeableConcept>
            <coding>
              <system value="http://fdasis.nlm.nih.gov"/>
              <code value="PT3TGI7OIP"/>
              <display value="HUMAN TYPE I COLLAGEN"/>
            </coding>
            <text value="HUMAN TYPE I COLLAGEN"/>
          </itemCodeableConcept>
        </ingredient>
      </Medication>
    </resource>
  </entry>
  <entry>
    <fullUrl value="https://myserver.org/Medication/6f4151e9-91f6-4f1e-adc3-fb94dda77856"/>
    <resource>
      <Medication>
        <id value="6f4151e9-91f6-4f1e-adc3-fb94dda77856"/>
        <text>
          <status value="generated"/><div xmlns="http://www.w3.org/1999/xhtml"><p><b>Generated Narrative: Medication</b><a name="6f4151e9-91f6-4f1e-adc3-fb94dda77856"> </a></p><div style="display: inline-block; background-color: #d9e0e7; padding: 6px; margin: 4px; border: 1px solid #8da1b4; border-radius: 5px; line-height: 60%"><p style="margin-bottom: 0px">Resource Medication &quot;6f4151e9-91f6-4f1e-adc3-fb94dda77856&quot; </p></div><p><b>code</b>: SORIA NATURAL VITAMINA C 36 COMPRIMIDOS <span style="background: LightGoldenRodYellow; margin: 4px; border: 1px solid khaki"> (man#kkk; <a href="http://terminology.hl7.org/5.0.0/CodeSystem-v3-WC.html">WHO ATC</a>#A11GA01 &quot;ascorbic acid (vit C)&quot;)</span></p><p><b>form</b>: Modified-release tablet <span style="background: LightGoldenRodYellow; margin: 4px; border: 1px solid khaki"> (standardterms.edqm.eu#10227000)</span></p><h3>Ingredients</h3><table class="grid"><tr><td>-</td><td><b>Item[x]</b></td></tr><tr><td>*</td><td>Vitamin C <span style="background: LightGoldenRodYellow; margin: 4px; border: 1px solid khaki"> (<a href="http://terminology.hl7.org/5.0.0/CodeSystem-UNII.html">Unique Ingredient Identifier (UNII)</a>#PQ6CK8PD0R &quot;ASCORBIC ACID&quot;)</span></td></tr></table></div>
        </text>
        <code>
          <coding>
            <system value="https://www.gravitatehealth.eu/sid/man"/>
            <code value="kkk"/>
            <display value="SORIA NATURAL VITAMINA C 36 COMPRIMIDOS"/>
          </coding>
          <coding>
            <system value="http://www.whocc.no/atc"/>
            <code value="A11GA01"/>
            <display value="ascorbic acid (vit C)"/>
          </coding>
        </code>
        <form>
          <coding>
            <system value="http://standardterms.edqm.eu"/>
            <code value="10227000"/>
            <display value="Modified-release tablet"/>
          </coding>
          <text value="Modified-release tablet"/>
        </form>
        <ingredient>
          <itemCodeableConcept>
            <coding>
              <system value="http://fdasis.nlm.nih.gov"/>
              <code value="PQ6CK8PD0R"/>
              <display value="ASCORBIC ACID"/>
            </coding>
            <text value="Vitamin C"/>
          </itemCodeableConcept>
        </ingredient>
      </Medication>
    </resource>
  </entry>
  <entry>
    <fullUrl value="https://myserver.org/Medication/6f4151e9-91f6-4f1e-adc3-fb94dda77857"/>
    <resource>
      <Medication>
        <id value="6f4151e9-91f6-4f1e-adc3-fb94dda77857"/>
        <text>
          <status value="generated"/><div xmlns="http://www.w3.org/1999/xhtml"><p><b>Generated Narrative: Medication</b><a name="6f4151e9-91f6-4f1e-adc3-fb94dda77857"> </a></p><div style="display: inline-block; background-color: #d9e0e7; padding: 6px; margin: 4px; border: 1px solid #8da1b4; border-radius: 5px; line-height: 60%"><p style="margin-bottom: 0px">Resource Medication &quot;6f4151e9-91f6-4f1e-adc3-fb94dda77857&quot; </p></div><p><b>code</b>: NATURES PLUS SPIRU-TEIN BATIDO PROTEINA SABOR COOKIES 525GR <span style="background: LightGoldenRodYellow; margin: 4px; border: 1px solid khaki"> (man#zzzz)</span></p><p><b>form</b>: Oral powder <span style="background: LightGoldenRodYellow; margin: 4px; border: 1px solid khaki"> (standardterms.edqm.eu#10201000)</span></p><h3>Ingredients</h3><table class="grid"><tr><td>-</td><td><b>Item[x]</b></td></tr><tr><td>*</td><td>SOY PROTEIN <span style="background: LightGoldenRodYellow; margin: 4px; border: 1px solid khaki"> (<a href="http://terminology.hl7.org/5.0.0/CodeSystem-UNII.html">Unique Ingredient Identifier (UNII)</a>#R44IWB3RN5)</span></td></tr></table></div>
        </text>
        <code>
          <coding>
            <system value="https://www.gravitatehealth.eu/sid/man"/>
            <code value="zzzz"/>
            <display value="NATURES PLUS SPIRU-TEIN BATIDO PROTEINA SABOR COOKIES 525GR"/>
          </coding>
        </code>
        <form>
          <coding>
            <system value="http://standardterms.edqm.eu"/>
            <code value="10201000"/>
            <display value="Oral powder"/>
          </coding>
          <text value="Oral powder"/>
        </form>
        <ingredient>
          <itemCodeableConcept>
            <coding>
              <system value="http://fdasis.nlm.nih.gov"/>
              <code value="R44IWB3RN5"/>
              <display value="SOY PROTEIN"/>
            </coding>
            <text value="SOY PROTEIN"/>
          </itemCodeableConcept>
        </ingredient>
      </Medication>
    </resource>
  </entry>
</Bundle>